thisN,thisTrialN,thisRepN,probe_size_dg,correct_key,illusion_response.keys,illusion_response.corr,illusion_response.rt,illusion_response.duration,key_resp.keys,instructions_loop.thisRepN,instructions_loop.thisTrialN,instructions_loop.thisN,instructions_loop.thisIndex,trials.thisRepN,trials.thisTrialN,trials.thisN,trials.thisIndex,thisRow.t,notes,instructions.started,instruction_text.started,instruction_key.started,instructions.stopped,instructions_loop.instruction_key.keys,instructions_loop.instruction_key.rt,instructions_loop.instruction_key.duration,illusion.started,probe_disk.started,target_disk.started,outer_disk_12.started,outer_disk_3.started,outer_disk_6.started,outer_disk_9.started,outer_disk_130.started,outer_disk_430.started,outer_disk_730.started,outer_disk_1030.started,illusion_response.started,fixation_cross.started,illusion.stopped,trials.illusion_response.keys,trials.illusion_response.corr,trials.illusion_response.rt,trials.illusion_response.duration,iti.started,key_resp.started,key_resp.stopped,iti.stopped,trials.key_resp.keys,end.started,end_text.started,end_text.stopped,end.stopped,participant,session,date,expName,psychopyVersion,frameRate,expStart,
0,0,0,1.4,s,s,1,1.7962289999995846,None,None,3,0,3,0,0,0,0,4,8.98984309998923,,4.676468299992848,4.6898330000112765,4.6898330000112765,8.973522699991008,space,4.27257189998636,None,8.977894700015895,8.98984309998923,8.98984309998923,8.98984309998923,8.98984309998923,8.98984309998923,8.98984309998923,8.98984309998923,8.98984309998923,8.98984309998923,8.98984309998923,8.98984309998923,8.98984309998923,10.790291600016644,s,1,1.7962289999995846,None,10.79033220000565,10.806581400014693,11.3064263999986,11.289998599997489,None,,,,,test,001,2025-03-26_08h07.29.253,ebbinghaus_illusion,2024.2.4,60.56803121992012,2025-03-26 08h07.39.146910 +1300,
1,1,0,1.8,l,l,1,0.9520507999986876,None,None,,,,,0,1,1,7,11.3064263999986,,,,,,,,,11.290735999995377,11.3064263999986,11.3064263999986,11.3064263999986,11.3064263999986,11.3064263999986,11.3064263999986,11.3064263999986,11.3064263999986,11.3064263999986,11.3064263999986,11.3064263999986,11.3064263999986,12.273547899996629,l,1,0.9520507999986876,None,12.273587000003317,12.289795299991965,12.78975039999932,12.773461100005079,None,,,,,test,001,2025-03-26_08h07.29.253,ebbinghaus_illusion,2024.2.4,60.56803121992012,2025-03-26 08h07.39.146910 +1300,
2,2,0,2.0,l,l,1,0.7962777999928221,None,None,,,,,0,2,2,9,12.78975039999932,,,,,,,,,12.774225900007877,12.78975039999932,12.78975039999932,12.78975039999932,12.78975039999932,12.78975039999932,12.78975039999932,12.78975039999932,12.78975039999932,12.78975039999932,12.78975039999932,12.78975039999932,12.78975039999932,13.59020179999061,l,1,0.7962777999928221,None,13.59024310001405,13.606556100014132,14.106410200009122,14.089941999991424,None,,,,,test,001,2025-03-26_08h07.29.253,ebbinghaus_illusion,2024.2.4,60.56803121992012,2025-03-26 08h07.39.146910 +1300,
3,3,0,1.2,s,s,1,0.7119364999816753,None,None,,,,,0,3,3,2,14.106410200009122,,,,,,,,,14.090710899996338,14.106410200009122,14.106410200009122,14.106410200009122,14.106410200009122,14.106410200009122,14.106410200009122,14.106410200009122,14.106410200009122,14.106410200009122,14.106410200009122,14.106410200009122,14.106410200009122,14.823537899996154,s,1,0.7119364999816753,None,14.823575799993705,14.839872100012144,15.339817400003085,15.323299100011354,None,,,,,test,001,2025-03-26_08h07.29.253,ebbinghaus_illusion,2024.2.4,60.56803121992012,2025-03-26 08h07.39.146910 +1300,
4,4,0,1.6,l,s,0,1.1424728000129107,None,None,,,,,0,4,4,5,15.339817400003085,,,,,,,,,15.32404239999596,15.339817400003085,15.339817400003085,15.339817400003085,15.339817400003085,15.339817400003085,15.339817400003085,15.339817400003085,15.339817400003085,15.339817400003085,15.339817400003085,15.339817400003085,15.339817400003085,16.490306699997745,s,0,1.1424728000129107,None,16.49034750001738,16.50647970000864,17.006569299992407,16.98996810000972,None,,,,,test,001,2025-03-26_08h07.29.253,ebbinghaus_illusion,2024.2.4,60.56803121992012,2025-03-26 08h07.39.146910 +1300,
5,5,0,1.7,l,l,1,1.3323306000092998,None,None,,,,,0,5,5,6,17.006569299992407,,,,,,,,,16.99074219999602,17.006569299992407,17.006569299992407,17.006569299992407,17.006569299992407,17.006569299992407,17.006569299992407,17.006569299992407,17.006569299992407,17.006569299992407,17.006569299992407,17.006569299992407,17.006569299992407,18.340213999996195,l,1,1.3323306000092998,None,18.340254500013543,18.356496599997627,18.85642039999948,18.83998360001715,None,,,,,test,001,2025-03-26_08h07.29.253,ebbinghaus_illusion,2024.2.4,60.56803121992012,2025-03-26 08h07.39.146910 +1300,
6,6,0,1.9,l,l,1,0.8905579000129364,None,None,,,,,0,6,6,8,18.85642039999948,,,,,,,,,18.840756399993552,18.85642039999948,18.85642039999948,18.85642039999948,18.85642039999948,18.85642039999948,18.85642039999948,18.85642039999948,18.85642039999948,18.85642039999948,18.85642039999948,18.85642039999948,18.85642039999948,19.756944799999474,l,1,0.8905579000129364,None,19.75698310000007,19.773084599990398,20.27302980000968,20.256732200010447,None,,,,,test,001,2025-03-26_08h07.29.253,ebbinghaus_illusion,2024.2.4,60.56803121992012,2025-03-26 08h07.39.146910 +1300,
7,7,0,1.0,s,s,1,0.8339081000012811,None,None,,,,,0,7,7,0,20.27302980000968,,,,,,,,,20.25749300001189,20.27302980000968,20.27302980000968,20.27302980000968,20.27302980000968,20.27302980000968,20.27302980000968,20.27302980000968,20.27302980000968,20.27302980000968,20.27302980000968,20.27302980000968,20.27302980000968,21.1235144000093,s,1,0.8339081000012811,None,21.12355360001675,21.139826099999482,21.639770000008866,21.623261300002923,None,,,,,test,001,2025-03-26_08h07.29.253,ebbinghaus_illusion,2024.2.4,60.56803121992012,2025-03-26 08h07.39.146910 +1300,
8,8,0,1.1,s,s,1,0.5071114999882411,None,None,,,,,0,8,8,1,21.639770000008866,,,,,,,,,21.624021299998276,21.639770000008866,21.639770000008866,21.639770000008866,21.639770000008866,21.639770000008866,21.639770000008866,21.639770000008866,21.639770000008866,21.639770000008866,21.639770000008866,21.639770000008866,21.639770000008866,22.156918900000164,s,1,0.5071114999882411,None,22.156960599997547,22.173074099991936,22.673094099998707,22.656708299997263,None,,,,,test,001,2025-03-26_08h07.29.253,ebbinghaus_illusion,2024.2.4,60.56803121992012,2025-03-26 08h07.39.146910 +1300,
9,9,0,1.3,s,s,1,0.8971069999970496,None,None,,,,,0,9,9,3,22.673094099998707,,,,,,,,,22.6574862000125,22.673094099998707,22.673094099998707,22.673094099998707,22.673094099998707,22.673094099998707,22.673094099998707,22.673094099998707,22.673094099998707,22.673094099998707,22.673094099998707,22.673094099998707,22.673094099998707,23.573682100017322,s,1,0.8971069999970496,None,23.57372439999017,23.589867100003175,24.089808599994285,24.073231199989095,None,,,,,test,001,2025-03-26_08h07.29.253,ebbinghaus_illusion,2024.2.4,60.56803121992012,2025-03-26 08h07.39.146910 +1300,
10,0,1,1.3,s,s,1,0.6968894000165164,None,None,,,,,1,0,10,3,24.089808599994285,,,,,,,,,24.073989500000607,24.089808599994285,24.089808599994285,24.089808599994285,24.089808599994285,24.089808599994285,24.089808599994285,24.089808599994285,24.089808599994285,24.089808599994285,24.089808599994285,24.089808599994285,24.089808599994285,24.790453599998727,s,1,0.6968894000165164,None,24.79049370001303,24.8127564000024,25.313090300012846,25.290122800011886,None,,,,,test,001,2025-03-26_08h07.29.253,ebbinghaus_illusion,2024.2.4,60.56803121992012,2025-03-26 08h07.39.146910 +1300,
11,1,1,1.9,l,l,1,0.6568619000026956,None,None,,,,,1,1,11,8,25.313090300012846,,,,,,,,,25.290872200013837,25.313090300012846,25.313090300012846,25.313090300012846,25.313090300012846,25.313090300012846,25.313090300012846,25.313090300012846,25.313090300012846,25.313090300012846,25.313090300012846,25.313090300012846,25.313090300012846,25.97386810000171,l,1,0.6568619000026956,None,25.973939799994696,25.989912499993807,26.4897220999992,26.473315400013234,None,,,,,test,001,2025-03-26_08h07.29.253,ebbinghaus_illusion,2024.2.4,60.56803121992012,2025-03-26 08h07.39.146910 +1300,
12,2,1,1.4,s,s,1,0.5363101999973878,None,None,,,,,1,2,12,4,26.4897220999992,,,,,,,,,26.474119099992095,26.4897220999992,26.4897220999992,26.4897220999992,26.4897220999992,26.4897220999992,26.4897220999992,26.4897220999992,26.4897220999992,26.4897220999992,26.4897220999992,26.4897220999992,26.4897220999992,27.02958580001723,s,1,0.5363101999973878,None,27.029633700003615,27.046020500012673,27.539667000004556,27.523181299999123,None,,,,,test,001,2025-03-26_08h07.29.253,ebbinghaus_illusion,2024.2.4,60.56803121992012,2025-03-26 08h07.39.146910 +1300,
13,3,1,2.0,l,l,1,0.5427883999946062,None,None,,,,,1,3,13,9,27.539667000004556,,,,,,,,,27.523921899992274,27.539667000004556,27.539667000004556,27.539667000004556,27.539667000004556,27.539667000004556,27.539667000004556,27.539667000004556,27.539667000004556,27.539667000004556,27.539667000004556,27.539667000004556,27.539667000004556,28.090190299990354,l,1,0.5427883999946062,None,28.090230800007703,28.106325300002936,28.606446299992967,28.58984380000038,None,,,,,test,001,2025-03-26_08h07.29.253,ebbinghaus_illusion,2024.2.4,60.56803121992012,2025-03-26 08h07.39.146910 +1300,
14,4,1,1.0,s,s,1,0.7081125999975484,None,None,,,,,1,4,14,0,28.606446299992967,,,,,,,,,28.59061089999159,28.606446299992967,28.606446299992967,28.606446299992967,28.606446299992967,28.606446299992967,28.606446299992967,28.606446299992967,28.606446299992967,28.606446299992967,28.606446299992967,28.606446299992967,28.606446299992967,29.323391600017203,s,1,0.7081125999975484,None,29.323431900003925,29.339708799991058,29.839735100016696,29.823119800013956,None,,,,,test,001,2025-03-26_08h07.29.253,ebbinghaus_illusion,2024.2.4,60.56803121992012,2025-03-26 08h07.39.146910 +1300,
15,5,1,1.2,s,s,1,0.9786662999831606,None,None,,,,,1,5,15,2,29.839735100016696,,,,,,,,,29.82387980000931,29.839735100016696,29.839735100016696,29.839735100016696,29.839735100016696,29.839735100016696,29.839735100016696,29.839735100016696,29.839735100016696,29.839735100016696,29.839735100016696,29.839735100016696,29.839735100016696,30.8235263999959,s,1,0.9786662999831606,None,30.823568899999373,30.83969699998852,31.339710800006287,31.32323899999028,None,,,,,test,001,2025-03-26_08h07.29.253,ebbinghaus_illusion,2024.2.4,60.56803121992012,2025-03-26 08h07.39.146910 +1300,
16,6,1,1.6,l,l,1,1.3020649999962188,None,None,,,,,1,6,16,5,31.339710800006287,,,,,,,,,31.324031600001035,31.339710800006287,31.339710800006287,31.339710800006287,31.339710800006287,31.339710800006287,31.339710800006287,31.339710800006287,31.339710800006287,31.339710800006287,31.339710800006287,31.339710800006287,31.339710800006287,32.656681099993875,l,1,1.3020649999962188,None,32.656721000006655,32.67296150000766,33.17300430001342,33.156500999990385,None,,,,,test,001,2025-03-26_08h07.29.253,ebbinghaus_illusion,2024.2.4,60.56803121992012,2025-03-26 08h07.39.146910 +1300,
17,7,1,1.8,l,l,1,0.7167290000070352,None,None,,,,,1,7,17,7,33.17300430001342,,,,,,,,,33.157270399999106,33.17300430001342,33.17300430001342,33.17300430001342,33.17300430001342,33.17300430001342,33.17300430001342,33.17300430001342,33.17300430001342,33.17300430001342,33.17300430001342,33.17300430001342,33.17300430001342,33.890332500013756,l,1,0.7167290000070352,None,33.89037209999515,33.90637350000907,34.40645810001297,34.38987240000279,None,,,,,test,001,2025-03-26_08h07.29.253,ebbinghaus_illusion,2024.2.4,60.56803121992012,2025-03-26 08h07.39.146910 +1300,
18,8,1,1.1,s,s,1,0.5563582000031602,None,None,,,,,1,8,18,1,34.40645810001297,,,,,,,,,34.39060939999763,34.40645810001297,34.40645810001297,34.40645810001297,34.40645810001297,34.40645810001297,34.40645810001297,34.40645810001297,34.40645810001297,34.40645810001297,34.40645810001297,34.40645810001297,34.40645810001297,34.97391400000197,s,1,0.5563582000031602,None,34.97395780001534,34.98965339999995,35.48959969999851,35.47309949999908,None,,,,,test,001,2025-03-26_08h07.29.253,ebbinghaus_illusion,2024.2.4,60.56803121992012,2025-03-26 08h07.39.146910 +1300,
19,9,1,1.7,l,l,1,1.2493651999975555,None,None,,,,,1,9,19,6,35.48959969999851,,,,,,,,,35.47387250000611,35.48959969999851,35.48959969999851,35.48959969999851,35.48959969999851,35.48959969999851,35.48959969999851,35.48959969999851,35.48959969999851,35.48959969999851,35.48959969999851,35.48959969999851,35.48959969999851,36.74014670000179,l,1,1.2493651999975555,None,36.740186500013806,36.756420799996704,37.25633860001108,37.239835999993375,None,,,,,test,001,2025-03-26_08h07.29.253,ebbinghaus_illusion,2024.2.4,60.56803121992012,2025-03-26 08h07.39.146910 +1300,
20,0,2,1.6,l,l,1,1.4664896999893244,None,None,,,,,2,0,20,5,37.25633860001108,,,,,,,,,37.24058690000675,37.25633860001108,37.25633860001108,37.25633860001108,37.25633860001108,37.25633860001108,37.25633860001108,37.25633860001108,37.25633860001108,37.25633860001108,37.25633860001108,37.25633860001108,37.25633860001108,38.723604700004216,l,1,1.4664896999893244,None,38.723644699988654,38.739592199999606,39.239705699990736,39.223065099999076,None,,,,,test,001,2025-03-26_08h07.29.253,ebbinghaus_illusion,2024.2.4,60.56803121992012,2025-03-26 08h07.39.146910 +1300,
21,1,2,1.0,s,s,1,0.41050149998045526,None,None,,,,,2,1,21,0,39.239705699990736,,,,,,,,,39.2238243999891,39.239705699990736,39.239705699990736,39.239705699990736,39.239705699990736,39.239705699990736,39.239705699990736,39.239705699990736,39.239705699990736,39.239705699990736,39.239705699990736,39.239705699990736,39.239705699990736,39.65672440000344,s,1,0.41050149998045526,None,39.65676710000844,39.67291510000359,40.172907900006976,40.15642640000442,None,,,,,test,001,2025-03-26_08h07.29.253,ebbinghaus_illusion,2024.2.4,60.56803121992012,2025-03-26 08h07.39.146910 +1300,
22,2,2,1.9,l,l,1,1.7019094999996014,None,None,,,,,2,2,22,8,40.172907900006976,,,,,,,,,40.157172300008824,40.172907900006976,40.172907900006976,40.172907900006976,40.172907900006976,40.172907900006976,40.172907900006976,40.172907900006976,40.172907900006976,40.172907900006976,40.172907900006976,40.172907900006976,40.172907900006976,41.89018550000037,l,1,1.7019094999996014,None,41.890225000010105,41.90638940001372,42.40622480001184,42.38974310000776,None,,,,,test,001,2025-03-26_08h07.29.253,ebbinghaus_illusion,2024.2.4,60.56803121992012,2025-03-26 08h07.39.146910 +1300,
23,3,2,1.7,l,l,1,1.1796445000218228,None,None,,,,,2,3,23,6,42.40622480001184,,,,,,,,,42.39048550001462,42.40622480001184,42.40622480001184,42.40622480001184,42.40622480001184,42.40622480001184,42.40622480001184,42.40622480001184,42.40622480001184,42.40622480001184,42.40622480001184,42.40622480001184,42.40622480001184,43.59002969998983,l,1,1.1796445000218228,None,43.590069500001846,43.60621669999091,44.10627809999278,44.089818000007654,None,,,,,test,001,2025-03-26_08h07.29.253,ebbinghaus_illusion,2024.2.4,60.56803121992012,2025-03-26 08h07.39.146910 +1300,
24,4,2,1.4,s,s,1,1.3682609000243247,None,None,,,,,2,4,24,4,44.10627809999278,,,,,,,,,44.09054770000512,44.10627809999278,44.10627809999278,44.10627809999278,44.10627809999278,44.10627809999278,44.10627809999278,44.10627809999278,44.10627809999278,44.10627809999278,44.10627809999278,44.10627809999278,44.10627809999278,45.48994610001682,s,1,1.3682609000243247,None,45.48998750001192,45.50621710001724,46.00625549998949,45.98987210000632,None,,,,,test,001,2025-03-26_08h07.29.253,ebbinghaus_illusion,2024.2.4,60.56803121992012,2025-03-26 08h07.39.146910 +1300,
25,5,2,1.2,s,s,1,0.9722415000142064,None,None,,,,,2,5,25,2,46.00625549998949,,,,,,,,,45.99070260001463,46.00625549998949,46.00625549998949,46.00625549998949,46.00625549998949,46.00625549998949,46.00625549998949,46.00625549998949,46.00625549998949,46.00625549998949,46.00625549998949,46.00625549998949,46.00625549998949,46.99017740000272,s,1,0.9722415000142064,None,46.99021960000391,47.006242800009204,47.52290720000747,47.50653459999012,None,,,,,test,001,2025-03-26_08h07.29.253,ebbinghaus_illusion,2024.2.4,60.56803121992012,2025-03-26 08h07.39.146910 +1300,
26,6,2,1.8,l,l,1,1.1034615999960806,None,None,,,,,2,6,26,7,47.52290720000747,,,,,,,,,47.50730009999825,47.52290720000747,47.52290720000747,47.52290720000747,47.52290720000747,47.52290720000747,47.52290720000747,47.52290720000747,47.52290720000747,47.52290720000747,47.52290720000747,47.52290720000747,47.52290720000747,48.63998840001295,l,1,1.1034615999960806,None,48.64003209999646,48.65624750001007,49.156235400005244,49.13970450000488,None,,,,,test,001,2025-03-26_08h07.29.253,ebbinghaus_illusion,2024.2.4,60.56803121992012,2025-03-26 08h07.39.146910 +1300,
27,7,2,1.1,s,s,1,1.630164500005776,None,None,,,,,2,7,27,1,49.156235400005244,,,,,,,,,49.14048729999922,49.156235400005244,49.156235400005244,49.156235400005244,49.156235400005244,49.156235400005244,49.156235400005244,49.156235400005244,49.156235400005244,49.156235400005244,49.156235400005244,49.156235400005244,49.156235400005244,50.79013060001307,s,1,1.630164500005776,None,50.79017359999125,50.80626949999714,51.30621060001431,51.28982370000449,None,,,,,test,001,2025-03-26_08h07.29.253,ebbinghaus_illusion,2024.2.4,60.56803121992012,2025-03-26 08h07.39.146910 +1300,
28,8,2,1.3,s,s,1,1.3518428999814205,None,None,,,,,2,8,28,3,51.30621060001431,,,,,,,,,51.29057770001236,51.30621060001431,51.30621060001431,51.30621060001431,51.30621060001431,51.30621060001431,51.30621060001431,51.30621060001431,51.30621060001431,51.30621060001431,51.30621060001431,51.30621060001431,51.30621060001431,52.67328230000567,s,1,1.3518428999814205,None,52.673324500006856,52.68954700001632,53.18949280001107,53.17297449999023,None,,,,,test,001,2025-03-26_08h07.29.253,ebbinghaus_illusion,2024.2.4,60.56803121992012,2025-03-26 08h07.39.146910 +1300,
29,9,2,2.0,l,l,1,0.5089014999975916,None,None,,,,,2,9,29,9,53.18949280001107,,,,,,,,,53.17373909999151,53.18949280001107,53.18949280001107,53.18949280001107,53.18949280001107,53.18949280001107,53.18949280001107,53.18949280001107,53.18949280001107,53.18949280001107,53.18949280001107,53.18949280001107,53.18949280001107,53.706832199997734,l,1,0.5089014999975916,None,53.70687270001508,53.72297649999382,54.22287130000768,54.20644219999667,None,,,,,test,001,2025-03-26_08h07.29.253,ebbinghaus_illusion,2024.2.4,60.56803121992012,2025-03-26 08h07.39.146910 +1300,
30,0,3,1.9,l,l,1,0.6911723999946844,None,None,,,,,3,0,30,8,54.22287130000768,,,,,,,,,54.20719260000624,54.22287130000768,54.22287130000768,54.22287130000768,54.22287130000768,54.22287130000768,54.22287130000768,54.22287130000768,54.22287130000768,54.22287130000768,54.22287130000768,54.22287130000768,54.22287130000768,54.9235086000117,l,1,0.6911723999946844,None,54.92354809999233,54.939632900001016,55.43965770001523,55.42305499999202,None,,,,,test,001,2025-03-26_08h07.29.253,ebbinghaus_illusion,2024.2.4,60.56803121992012,2025-03-26 08h07.39.146910 +1300,
31,1,3,1.2,s,s,1,0.4347399999969639,None,None,,,,,3,1,31,2,55.43965770001523,,,,,,,,,55.423806900013005,55.43965770001523,55.43965770001523,55.43965770001523,55.43965770001523,55.43965770001523,55.43965770001523,55.43965770001523,55.43965770001523,55.43965770001523,55.43965770001523,55.43965770001523,55.43965770001523,55.88987610000186,s,1,0.4347399999969639,None,55.88991620001616,55.90619450001395,56.406147400004556,56.38976570000523,None,,,,,test,001,2025-03-26_08h07.29.253,ebbinghaus_illusion,2024.2.4,60.56803121992012,2025-03-26 08h07.39.146910 +1300,
32,2,3,2.0,l,l,1,0.8279506999824662,None,None,,,,,3,2,32,9,56.406147400004556,,,,,,,,,56.390516599989496,56.406147400004556,56.406147400004556,56.406147400004556,56.406147400004556,56.406147400004556,56.406147400004556,56.406147400004556,56.406147400004556,56.406147400004556,56.406147400004556,56.406147400004556,56.406147400004556,57.23999100000947,l,1,0.8279506999824662,None,57.240030899993144,57.25618409999879,57.75628709999728,57.73967109998921,None,,,,,test,001,2025-03-26_08h07.29.253,ebbinghaus_illusion,2024.2.4,60.56803121992012,2025-03-26 08h07.39.146910 +1300,
33,3,3,1.6,l,l,1,1.4297619000135455,None,None,,,,,3,3,33,5,57.75628709999728,,,,,,,,,57.74044950000825,57.75628709999728,57.75628709999728,57.75628709999728,57.75628709999728,57.75628709999728,57.75628709999728,57.75628709999728,57.75628709999728,57.75628709999728,57.75628709999728,57.75628709999728,57.75628709999728,59.190125099994475,l,1,1.4297619000135455,None,59.19016329999431,59.20613000000594,59.70614670001669,59.68964880000567,None,,,,,test,001,2025-03-26_08h07.29.253,ebbinghaus_illusion,2024.2.4,60.56803121992012,2025-03-26 08h07.39.146910 +1300,
34,4,3,1.0,s,s,1,0.9677977999963332,None,None,,,,,3,4,34,0,59.70614670001669,,,,,,,,,59.69040950000635,59.70614670001669,59.70614670001669,59.70614670001669,59.70614670001669,59.70614670001669,59.70614670001669,59.70614670001669,59.70614670001669,59.70614670001669,59.70614670001669,59.70614670001669,59.70614670001669,60.69002549999277,s,1,0.9677977999963332,None,60.69006349999108,60.70611190001364,61.20610400001169,61.189780499989865,None,,,,,test,001,2025-03-26_08h07.29.253,ebbinghaus_illusion,2024.2.4,60.56803121992012,2025-03-26 08h07.39.146910 +1300,
35,5,3,1.1,s,s,1,0.7961543000128586,None,None,,,,,3,5,35,1,61.20610400001169,,,,,,,,,61.19054119999055,61.20610400001169,61.20610400001169,61.20610400001169,61.20610400001169,61.20610400001169,61.20610400001169,61.20610400001169,61.20610400001169,61.20610400001169,61.20610400001169,61.20610400001169,61.20610400001169,62.00665409999783,s,1,0.7961543000128586,None,62.006695099989884,62.02290680000442,62.52294809999876,62.50631309999153,None,,,,,test,001,2025-03-26_08h07.29.253,ebbinghaus_illusion,2024.2.4,60.56803121992012,2025-03-26 08h07.39.146910 +1300,
36,6,3,1.8,l,l,1,1.094967799988808,None,None,,,,,3,6,36,7,62.52294809999876,,,,,,,,,62.50708320000558,62.52294809999876,62.52294809999876,62.52294809999876,62.52294809999876,62.52294809999876,62.52294809999876,62.52294809999876,62.52294809999876,62.52294809999876,62.52294809999876,62.52294809999876,62.52294809999876,63.623303000000305,l,1,1.094967799988808,None,63.62334469999769,63.63943169999402,64.13948630000232,64.12298079999164,None,,,,,test,001,2025-03-26_08h07.29.253,ebbinghaus_illusion,2024.2.4,60.56803121992012,2025-03-26 08h07.39.146910 +1300,
37,7,3,1.7,l,l,1,0.6470297999912873,None,None,,,,,3,7,37,6,64.13948630000232,,,,,,,,,64.12372870001127,64.13948630000232,64.13948630000232,64.13948630000232,64.13948630000232,64.13948630000232,64.13948630000232,64.13948630000232,64.13948630000232,64.13948630000232,64.13948630000232,64.13948630000232,64.13948630000232,64.79006709999521,l,1,0.6470297999912873,None,64.79010740001104,64.80609200001345,65.30613800001447,65.28974820001167,None,,,,,test,001,2025-03-26_08h07.29.253,ebbinghaus_illusion,2024.2.4,60.56803121992012,2025-03-26 08h07.39.146910 +1300,
38,8,3,1.3,s,s,1,2.344704199989792,None,None,,,,,3,8,38,3,65.30613800001447,,,,,,,,,65.29050350000034,65.30613800001447,65.30613800001447,65.30613800001447,65.30613800001447,65.30613800001447,65.30613800001447,65.30613800001447,65.30613800001447,65.30613800001447,65.30613800001447,65.30613800001447,65.30613800001447,67.65672520000953,s,1,2.344704199989792,None,67.65676730000996,67.67273240000941,68.17278920000535,68.15626429999247,None,,,,,test,001,2025-03-26_08h07.29.253,ebbinghaus_illusion,2024.2.4,60.56803121992012,2025-03-26 08h07.39.146910 +1300,
39,9,3,1.4,s,s,1,2.9818268999806605,None,None,,,,,3,9,39,4,68.17278920000535,,,,,,,,,68.15700100001413,68.17278920000535,68.17278920000535,68.17278920000535,68.17278920000535,68.17278920000535,68.17278920000535,68.17278920000535,68.17278920000535,68.17278920000535,68.17278920000535,68.17278920000535,68.17278920000535,71.15666169999167,s,1,2.9818268999806605,None,71.15670190000674,71.17276980000315,71.6727605999913,71.6564129999897,None,,,,,test,001,2025-03-26_08h07.29.253,ebbinghaus_illusion,2024.2.4,60.56803121992012,2025-03-26 08h07.39.146910 +1300,
40,0,4,1.9,l,l,1,0.44173449999652803,None,None,,,,,4,0,40,8,71.6727605999913,,,,,,,,,71.65717359998962,71.6727605999913,71.6727605999913,71.6727605999913,71.6727605999913,71.6727605999913,71.6727605999913,71.6727605999913,71.6727605999913,71.6727605999913,71.6727605999913,71.6727605999913,71.6727605999913,72.12311780001619,l,1,0.44173449999652803,None,72.12315570001374,72.13951490001637,72.639499300014,72.62310220001382,None,,,,,test,001,2025-03-26_08h07.29.253,ebbinghaus_illusion,2024.2.4,60.56803121992012,2025-03-26 08h07.39.146910 +1300,
41,1,4,1.3,s,s,1,0.8513636999996379,None,None,,,,,4,1,41,3,72.639499300014,,,,,,,,,72.62386479999986,72.639499300014,72.639499300014,72.639499300014,72.639499300014,72.639499300014,72.639499300014,72.639499300014,72.639499300014,72.639499300014,72.639499300014,72.639499300014,72.639499300014,73.50642499999958,s,1,0.8513636999996379,None,73.50646259999485,73.52280870001414,74.0227642999962,74.006434800016,None,,,,,test,001,2025-03-26_08h07.29.253,ebbinghaus_illusion,2024.2.4,60.56803121992012,2025-03-26 08h07.39.146910 +1300,
42,2,4,1.2,s,s,1,0.4914456999977119,None,None,,,,,4,2,42,2,74.0227642999962,,,,,,,,,74.00719460000983,74.0227642999962,74.0227642999962,74.0227642999962,74.0227642999962,74.0227642999962,74.0227642999962,74.0227642999962,74.0227642999962,74.0227642999962,74.0227642999962,74.0227642999962,74.0227642999962,74.5233058000158,s,1,0.4914456999977119,None,74.52334650000557,74.5393541000085,75.03940629999852,75.02299800000037,None,,,,,test,001,2025-03-26_08h07.29.253,ebbinghaus_illusion,2024.2.4,60.56803121992012,2025-03-26 08h07.39.146910 +1300,
43,3,4,1.4,s,s,1,1.7469276000047103,None,None,,,,,4,3,43,4,75.03940629999852,,,,,,,,,75.02376549999462,75.03940629999852,75.03940629999852,75.03940629999852,75.03940629999852,75.03940629999852,75.03940629999852,75.03940629999852,75.03940629999852,75.03940629999852,75.03940629999852,75.03940629999852,75.03940629999852,76.78983130000415,s,1,1.7469276000047103,None,76.7898736000061,76.80601339999703,77.30604620001395,77.28953629999887,None,,,,,test,001,2025-03-26_08h07.29.253,ebbinghaus_illusion,2024.2.4,60.56803121992012,2025-03-26 08h07.39.146910 +1300,
44,4,4,1.0,s,s,1,0.5040220000082627,None,None,,,,,4,4,44,0,77.30604620001395,,,,,,,,,77.29026800001157,77.30604620001395,77.30604620001395,77.30604620001395,77.30604620001395,77.30604620001395,77.30604620001395,77.30604620001395,77.30604620001395,77.30604620001395,77.30604620001395,77.30604620001395,77.30604620001395,77.8231717000017,s,1,0.5040220000082627,None,77.82321400000365,77.83974270001636,78.33938590000616,78.32303930001217,None,,,,,test,001,2025-03-26_08h07.29.253,ebbinghaus_illusion,2024.2.4,60.56803121992012,2025-03-26 08h07.39.146910 +1300,
45,5,4,2.0,l,l,1,0.4623476000269875,None,None,,,,,4,5,45,9,78.33938590000616,,,,,,,,,78.32379799999762,78.33938590000616,78.33938590000616,78.33938590000616,78.33938590000616,78.33938590000616,78.33938590000616,78.33938590000616,78.33938590000616,78.33938590000616,78.33938590000616,78.33938590000616,78.33938590000616,78.8064779000124,l,1,0.4623476000269875,None,78.80651940000826,78.82275379999192,79.32267220001086,79.30624830001034,None,,,,,test,001,2025-03-26_08h07.29.253,ebbinghaus_illusion,2024.2.4,60.56803121992012,2025-03-26 08h07.39.146910 +1300,
46,6,4,1.7,l,l,1,1.2237393999821506,None,None,,,,,4,6,46,6,79.32267220001086,,,,,,,,,79.3070093000133,79.32267220001086,79.32267220001086,79.32267220001086,79.32267220001086,79.32267220001086,79.32267220001086,79.32267220001086,79.32267220001086,79.32267220001086,79.32267220001086,79.32267220001086,79.32267220001086,80.55653209998854,l,1,1.2237393999821506,None,80.55657220000285,80.5726602000068,81.07269580001594,81.05631590000121,None,,,,,test,001,2025-03-26_08h07.29.253,ebbinghaus_illusion,2024.2.4,60.56803121992012,2025-03-26 08h07.39.146910 +1300,
47,7,4,1.6,l,l,1,1.3139909000019543,None,None,,,,,4,7,47,5,81.07269580001594,,,,,,,,,81.05708339999546,81.07269580001594,81.07269580001594,81.07269580001594,81.07269580001594,81.07269580001594,81.07269580001594,81.07269580001594,81.07269580001594,81.07269580001594,81.07269580001594,81.07269580001594,81.07269580001594,82.3897447999916,l,1,1.3139909000019543,None,82.38978450000286,82.40599600001588,82.9060562000086,82.88960759999463,None,,,,,test,001,2025-03-26_08h07.29.253,ebbinghaus_illusion,2024.2.4,60.56803121992012,2025-03-26 08h07.39.146910 +1300,
48,8,4,1.8,l,l,1,0.7280927000101656,None,None,,,,,4,8,48,7,82.9060562000086,,,,,,,,,82.89038369999616,82.9060562000086,82.9060562000086,82.9060562000086,82.9060562000086,82.9060562000086,82.9060562000086,82.9060562000086,82.9060562000086,82.9060562000086,82.9060562000086,82.9060562000086,82.9060562000086,83.63974059998873,l,1,0.7280927000101656,None,83.63978029999998,83.65596629999345,84.15609299999778,84.1394438999996,None,,,,,test,001,2025-03-26_08h07.29.253,ebbinghaus_illusion,2024.2.4,60.56803121992012,2025-03-26 08h07.39.146910 +1300,
49,9,4,1.1,s,s,1,1.3022231999784708,None,None,,,,,4,9,49,1,84.15609299999778,,,,,,,,,84.14021169999614,84.15609299999778,84.15609299999778,84.15609299999778,84.15609299999778,84.15609299999778,84.15609299999778,84.15609299999778,84.15609299999778,84.15609299999778,84.15609299999778,84.15609299999778,84.15609299999778,85.4732961000118,s,1,1.3022231999784708,None,85.47333420001087,85.48940590000711,85.9893510999973,85.97292729999754,None,,,,,test,001,2025-03-26_08h07.29.253,ebbinghaus_illusion,2024.2.4,60.56803121992012,2025-03-26 08h07.39.146910 +1300,
50,0,5,1.3,s,s,1,1.2284355000010692,None,None,,,,,5,0,50,3,85.9893510999973,,,,,,,,,85.97367269999813,85.9893510999973,85.9893510999973,85.9893510999973,85.9893510999973,85.9893510999973,85.9893510999973,85.9893510999973,85.9893510999973,85.9893510999973,85.9893510999973,85.9893510999973,85.9893510999973,87.22342840000056,s,1,1.2284355000010692,None,87.22347009999794,87.23936010000762,87.73935320001328,87.72290809999686,None,,,,,test,001,2025-03-26_08h07.29.253,ebbinghaus_illusion,2024.2.4,60.56803121992012,2025-03-26 08h07.39.146910 +1300,
51,1,5,2.0,l,l,1,0.9506887999887113,None,None,,,,,5,1,51,9,87.73935320001328,,,,,,,,,87.72368880000431,87.73935320001328,87.73935320001328,87.73935320001328,87.73935320001328,87.73935320001328,87.73935320001328,87.73935320001328,87.73935320001328,87.73935320001328,87.73935320001328,87.73935320001328,87.73935320001328,88.70634840001003,l,1,0.9506887999887113,None,88.70638769998914,88.72265000001062,89.22267960000318,89.20621309999842,None,,,,,test,001,2025-03-26_08h07.29.253,ebbinghaus_illusion,2024.2.4,60.56803121992012,2025-03-26 08h07.39.146910 +1300,
52,2,5,1.1,s,s,1,1.099672800017288,None,None,,,,,5,2,52,1,89.22267960000318,,,,,,,,,89.20753310000873,89.22267960000318,89.22267960000318,89.22267960000318,89.22267960000318,89.22267960000318,89.22267960000318,89.22267960000318,89.22267960000318,89.22267960000318,89.22267960000318,89.22267960000318,89.22267960000318,90.32321910001338,s,1,1.099672800017288,None,90.32326100001228,90.33944509999128,90.8393131000048,90.82290580001427,None,,,,,test,001,2025-03-26_08h07.29.253,ebbinghaus_illusion,2024.2.4,60.56803121992012,2025-03-26 08h07.39.146910 +1300,
53,3,5,1.4,s,s,1,1.0673169000074267,None,None,,,,,5,3,53,4,90.8393131000048,,,,,,,,,90.82369859999744,90.8393131000048,90.8393131000048,90.8393131000048,90.8393131000048,90.8393131000048,90.8393131000048,90.8393131000048,90.8393131000048,90.8393131000048,90.8393131000048,90.8393131000048,90.8393131000048,91.92301050000242,s,1,1.0673169000074267,None,91.92304980001063,91.93939459999092,92.43924219999462,92.42274569999427,None,,,,,test,001,2025-03-26_08h07.29.253,ebbinghaus_illusion,2024.2.4,60.56803121992012,2025-03-26 08h07.39.146910 +1300,
54,4,5,1.7,l,l,1,0.7626306000165641,None,None,,,,,5,4,54,6,92.43924219999462,,,,,,,,,92.42349340001238,92.43924219999462,92.43924219999462,92.43924219999462,92.43924219999462,92.43924219999462,92.43924219999462,92.43924219999462,92.43924219999462,92.43924219999462,92.43924219999462,92.43924219999462,92.43924219999462,93.20646590000251,l,1,0.7626306000165641,None,93.20650490000844,93.2226265000063,93.72262059999048,93.7062442000024,None,,,,,test,001,2025-03-26_08h07.29.253,ebbinghaus_illusion,2024.2.4,60.56803121992012,2025-03-26 08h07.39.146910 +1300,
55,5,5,1.8,l,l,1,0.6155502000183333,None,None,,,,,5,5,55,7,93.72262059999048,,,,,,,,,93.70710960001452,93.72262059999048,93.72262059999048,93.72262059999048,93.72262059999048,93.72262059999048,93.72262059999048,93.72262059999048,93.72262059999048,93.72262059999048,93.72262059999048,93.72262059999048,93.72262059999048,94.34002050000709,l,1,0.6155502000183333,None,94.34006390001741,94.35595430000103,94.85595070000272,94.8396364999935,None,,,,,test,001,2025-03-26_08h07.29.253,ebbinghaus_illusion,2024.2.4,60.56803121992012,2025-03-26 08h07.39.146910 +1300,
56,6,5,1.2,s,s,1,0.45804739999584854,None,None,,,,,5,6,56,2,94.85595070000272,,,,,,,,,94.84037560000434,94.85595070000272,94.85595070000272,94.85595070000272,94.85595070000272,94.85595070000272,94.85595070000272,94.85595070000272,94.85595070000272,94.85595070000272,94.85595070000272,94.85595070000272,94.85595070000272,95.32303800000227,s,1,0.45804739999584854,None,95.32307949999813,95.33928270000615,95.83928079999168,95.82278940000106,None,,,,,test,001,2025-03-26_08h07.29.253,ebbinghaus_illusion,2024.2.4,60.56803121992012,2025-03-26 08h07.39.146910 +1300,
57,7,5,1.9,l,l,1,0.4352645999751985,None,None,,,,,5,7,57,8,95.83928079999168,,,,,,,,,95.82351419999031,95.83928079999168,95.83928079999168,95.83928079999168,95.83928079999168,95.83928079999168,95.83928079999168,95.83928079999168,95.83928079999168,95.83928079999168,95.83928079999168,95.83928079999168,95.83928079999168,96.2899722000002,l,1,0.4352645999751985,None,96.29003850001027,96.30593880001106,96.80594089999795,96.78949910000665,None,,,,,test,001,2025-03-26_08h07.29.253,ebbinghaus_illusion,2024.2.4,60.56803121992012,2025-03-26 08h07.39.146910 +1300,
58,8,5,1.6,l,l,1,1.372286300000269,None,None,,,,,5,8,58,5,96.80594089999795,,,,,,,,,96.79026470001554,96.80594089999795,96.80594089999795,96.80594089999795,96.80594089999795,96.80594089999795,96.80594089999795,96.80594089999795,96.80594089999795,96.80594089999795,96.80594089999795,96.80594089999795,96.80594089999795,98.18964620001498,l,1,1.372286300000269,None,98.1896865000017,98.20602079998935,98.7059145999956,98.68952179999906,None,,,,,test,001,2025-03-26_08h07.29.253,ebbinghaus_illusion,2024.2.4,60.56803121992012,2025-03-26 08h07.39.146910 +1300,
59,9,5,1.0,s,s,1,0.4169899999978952,None,None,,,,,5,9,59,0,98.7059145999956,,,,,,,,,98.69028320000507,98.7059145999956,98.7059145999956,98.7059145999956,98.7059145999956,98.7059145999956,98.7059145999956,98.7059145999956,98.7059145999956,98.7059145999956,98.7059145999956,98.7059145999956,98.7059145999956,99.13955970000825,s,1,0.4169899999978952,None,99.13959910001722,99.15592099999776,99.65594359999523,99.63943010001094,None,,,,,test,001,2025-03-26_08h07.29.253,ebbinghaus_illusion,2024.2.4,60.56803121992012,2025-03-26 08h07.39.146910 +1300,
60,0,6,1.3,s,s,1,1.6267091000045184,None,None,,,,,6,0,60,3,99.65594359999523,,,,,,,,,99.6401887999964,99.65594359999523,99.65594359999523,99.65594359999523,99.65594359999523,99.65594359999523,99.65594359999523,99.65594359999523,99.65594359999523,99.65594359999523,99.65594359999523,99.65594359999523,99.65594359999523,101.2897665000055,s,1,1.6267091000045184,None,101.28980779999983,101.30593500001123,101.8060523000022,101.78940460001468,None,,,,,test,001,2025-03-26_08h07.29.253,ebbinghaus_illusion,2024.2.4,60.56803121992012,2025-03-26 08h07.39.146910 +1300,
61,1,6,1.2,s,s,1,0.4837026000022888,None,None,,,,,6,1,61,2,101.8060523000022,,,,,,,,,101.79015529999742,101.8060523000022,101.8060523000022,101.8060523000022,101.8060523000022,101.8060523000022,101.8060523000022,101.8060523000022,101.8060523000022,101.8060523000022,101.8060523000022,101.8060523000022,101.8060523000022,102.30660040001385,s,1,0.4837026000022888,None,102.30665260000387,102.32255939999595,102.82270129999961,102.8060792000033,None,,,,,test,001,2025-03-26_08h07.29.253,ebbinghaus_illusion,2024.2.4,60.56803121992012,2025-03-26 08h07.39.146910 +1300,
62,2,6,1.7,l,l,1,1.2430187000136357,None,None,,,,,6,2,62,6,102.82270129999961,,,,,,,,,102.80681860001641,102.82270129999961,102.82270129999961,102.82270129999961,102.82270129999961,102.82270129999961,102.82270129999961,102.82270129999961,102.82270129999961,102.82270129999961,102.82270129999961,102.82270129999961,102.82270129999961,104.07295560001512,l,1,1.2430187000136357,None,104.0729960000026,104.08921689999988,104.58925459999591,104.57280470000114,None,,,,,test,001,2025-03-26_08h07.29.253,ebbinghaus_illusion,2024.2.4,60.56803121992012,2025-03-26 08h07.39.146910 +1300,
63,3,6,1.0,s,s,1,0.5811050999909639,None,None,,,,,6,3,63,0,104.58925459999591,,,,,,,,,104.57356069999514,104.58925459999591,104.58925459999591,104.58925459999591,104.58925459999591,104.58925459999591,104.58925459999591,104.58925459999591,104.58925459999591,104.58925459999591,104.58925459999591,104.58925459999591,104.58925459999591,105.17311860001064,s,1,0.5811050999909639,None,105.17315919999965,105.18917090000468,105.6893354000058,105.67282169999089,None,,,,,test,001,2025-03-26_08h07.29.253,ebbinghaus_illusion,2024.2.4,60.56803121992012,2025-03-26 08h07.39.146910 +1300,
64,4,6,2.0,l,l,1,0.48934440000448376,None,None,,,,,6,4,64,9,105.6893354000058,,,,,,,,,105.67354089999571,105.6893354000058,105.6893354000058,105.6893354000058,105.6893354000058,105.6893354000058,105.6893354000058,105.6893354000058,105.6893354000058,105.6893354000058,105.6893354000058,105.6893354000058,105.6893354000058,106.18958179999026,l,1,0.48934440000448376,None,106.18962140000076,106.20582329999888,106.70598090000567,106.68952429998899,None,,,,,test,001,2025-03-26_08h07.29.253,ebbinghaus_illusion,2024.2.4,60.56803121992012,2025-03-26 08h07.39.146910 +1300,
65,5,6,1.4,s,s,1,0.9769348000118043,None,None,,,,,6,5,65,4,106.70598090000567,,,,,,,,,106.69026520001353,106.70598090000567,106.70598090000567,106.70598090000567,106.70598090000567,106.70598090000567,106.70598090000567,106.70598090000567,106.70598090000567,106.70598090000567,106.70598090000567,106.70598090000567,106.70598090000567,107.68955529999221,s,1,0.9769348000118043,None,107.68959460000042,107.70589079998899,108.20586290000938,108.18944290000945,None,,,,,test,001,2025-03-26_08h07.29.253,ebbinghaus_illusion,2024.2.4,60.56803121992012,2025-03-26 08h07.39.146910 +1300,
66,6,6,1.1,s,s,1,0.5004828999808524,None,None,,,,,6,6,66,1,108.20586290000938,,,,,,,,,108.19018820000929,108.20586290000938,108.20586290000938,108.20586290000938,108.20586290000938,108.20586290000938,108.20586290000938,108.20586290000938,108.20586290000938,108.20586290000938,108.20586290000938,108.20586290000938,108.20586290000938,108.72282870000345,s,1,0.5004828999808524,None,108.72286740000709,108.73915189999389,109.23930370001472,109.22292279999238,None,,,,,test,001,2025-03-26_08h07.29.253,ebbinghaus_illusion,2024.2.4,60.56803121992012,2025-03-26 08h07.39.146910 +1300,
67,7,6,1.8,l,l,1,0.539349200000288,None,None,,,,,6,7,67,7,109.23930370001472,,,,,,,,,109.22367750000558,109.23930370001472,109.23930370001472,109.23930370001472,109.23930370001472,109.23930370001472,109.23930370001472,109.23930370001472,109.23930370001472,109.23930370001472,109.23930370001472,109.23930370001472,109.23930370001472,109.7897546000022,l,1,0.539349200000288,None,109.78979770001024,109.80585219999193,110.30580200001714,110.28939049999462,None,,,,,test,001,2025-03-26_08h07.29.253,ebbinghaus_illusion,2024.2.4,60.56803121992012,2025-03-26 08h07.39.146910 +1300,
68,8,6,1.6,l,s,0,1.4242648000072222,None,None,,,,,6,8,68,5,110.30580200001714,,,,,,,,,110.29017019999446,110.30580200001714,110.30580200001714,110.30580200001714,110.30580200001714,110.30580200001714,110.30580200001714,110.30580200001714,110.30580200001714,110.30580200001714,110.30580200001714,110.30580200001714,110.30580200001714,111.73959390001255,s,0,1.4242648000072222,None,111.7396326000162,111.7559048999974,112.25587429999723,112.23946710000746,None,,,,,test,001,2025-03-26_08h07.29.253,ebbinghaus_illusion,2024.2.4,60.56803121992012,2025-03-26 08h07.39.146910 +1300,
69,9,6,1.9,l,l,1,0.4822128000087105,None,None,,,,,6,9,69,8,112.25587429999723,,,,,,,,,112.24023480000324,112.25587429999723,112.25587429999723,112.25587429999723,112.25587429999723,112.25587429999723,112.25587429999723,112.25587429999723,112.25587429999723,112.25587429999723,112.25587429999723,112.25587429999723,112.25587429999723,112.7395785000117,l,1,0.4822128000087105,None,112.73962189999293,112.75578909998876,113.25583239999833,113.23942480000551,None,,,,,test,001,2025-03-26_08h07.29.253,ebbinghaus_illusion,2024.2.4,60.56803121992012,2025-03-26 08h07.39.146910 +1300,
70,0,7,1.8,l,l,1,1.1147108000004664,None,None,,,,,7,0,70,7,113.25583239999833,,,,,,,,,113.24059299999499,113.25583239999833,113.25583239999833,113.25583239999833,113.25583239999833,113.25583239999833,113.25583239999833,113.25583239999833,113.25583239999833,113.25583239999833,113.25583239999833,113.25583239999833,113.25583239999833,114.37298620000365,l,1,1.1147108000004664,None,114.37302699999418,114.38914600000135,114.8891500000027,114.8728192000126,None,,,,,test,001,2025-03-26_08h07.29.253,ebbinghaus_illusion,2024.2.4,60.56803121992012,2025-03-26 08h07.39.146910 +1300,
71,1,7,1.9,l,l,1,1.673025600000983,None,None,,,,,7,1,71,8,114.8891500000027,,,,,,,,,114.87359619999188,114.8891500000027,114.8891500000027,114.8891500000027,114.8891500000027,114.8891500000027,114.8891500000027,114.8891500000027,114.8891500000027,114.8891500000027,114.8891500000027,114.8891500000027,114.8891500000027,116.5731642000028,l,1,1.673025600000983,None,116.57320129999425,116.58914490000461,117.08910710000782,117.07274390000384,None,,,,,test,001,2025-03-26_08h07.29.253,ebbinghaus_illusion,2024.2.4,60.56803121992012,2025-03-26 08h07.39.146910 +1300,
72,2,7,1.7,l,l,1,1.5687055999878794,None,None,,,,,7,2,72,6,117.08910710000782,,,,,,,,,117.07353729999159,117.08910710000782,117.08910710000782,117.08910710000782,117.08910710000782,117.08910710000782,117.08910710000782,117.08910710000782,117.08910710000782,117.08910710000782,117.08910710000782,117.08910710000782,117.08910710000782,118.67305010001292,l,1,1.5687055999878794,None,118.67309039999964,118.68920870000147,119.1890820999979,119.17272150001372,None,,,,,test,001,2025-03-26_08h07.29.253,ebbinghaus_illusion,2024.2.4,60.56803121992012,2025-03-26 08h07.39.146910 +1300,
73,3,7,1.1,s,s,1,0.557417300005909,None,None,,,,,7,3,73,1,119.1890820999979,,,,,,,,,119.17351729999064,119.1890820999979,119.1890820999979,119.1890820999979,119.1890820999979,119.1890820999979,119.1890820999979,119.1890820999979,119.1890820999979,119.1890820999979,119.1890820999979,119.1890820999979,119.1890820999979,119.75629499999923,s,1,0.557417300005909,None,119.75633560001734,119.7724520000047,120.27259370000684,120.25601790001383,None,,,,,test,001,2025-03-26_08h07.29.253,ebbinghaus_illusion,2024.2.4,60.56803121992012,2025-03-26 08h07.39.146910 +1300,
74,4,7,1.2,s,s,1,1.8890477999811992,None,None,,,,,7,4,74,2,120.27259370000684,,,,,,,,,120.25683080000454,120.27259370000684,120.27259370000684,120.27259370000684,120.27259370000684,120.27259370000684,120.27259370000684,120.27259370000684,120.27259370000684,120.27259370000684,120.27259370000684,120.27259370000684,120.27259370000684,122.17291220001061,s,1,1.8890477999811992,None,122.17296080000233,122.18914299999597,122.68920300001628,122.67278329998953,None,,,,,test,001,2025-03-26_08h07.29.253,ebbinghaus_illusion,2024.2.4,60.56803121992012,2025-03-26 08h07.39.146910 +1300,
75,5,7,1.4,s,s,1,1.344618699979037,None,None,,,,,7,5,75,4,122.68920300001628,,,,,,,,,122.67355289999978,122.68920300001628,122.68920300001628,122.68920300001628,122.68920300001628,122.68920300001628,122.68920300001628,122.68920300001628,122.68920300001628,122.68920300001628,122.68920300001628,122.68920300001628,122.68920300001628,124.04003490001196,s,1,1.344618699979037,None,124.04007580000325,124.05586620001122,124.55584479999379,124.53949190001003,None,,,,,test,001,2025-03-26_08h07.29.253,ebbinghaus_illusion,2024.2.4,60.56803121992012,2025-03-26 08h07.39.146910 +1300,
76,6,7,1.6,l,l,1,1.206754799990449,None,None,,,,,7,6,76,5,124.55584479999379,,,,,,,,,124.54027729999507,124.55584479999379,124.55584479999379,124.55584479999379,124.55584479999379,124.55584479999379,124.55584479999379,124.55584479999379,124.55584479999379,124.55584479999379,124.55584479999379,124.55584479999379,124.55584479999379,125.77298270000028,l,1,1.206754799990449,None,125.77302480000071,125.78907840000466,126.28907769999932,126.27266300001065,None,,,,,test,001,2025-03-26_08h07.29.253,ebbinghaus_illusion,2024.2.4,60.56803121992012,2025-03-26 08h07.39.146910 +1300,
77,7,7,2.0,l,l,1,0.5934102000028361,None,None,,,,,7,7,77,9,126.28907769999932,,,,,,,,,126.27397629999905,126.28907769999932,126.28907769999932,126.28907769999932,126.28907769999932,126.28907769999932,126.28907769999932,126.28907769999932,126.28907769999932,126.28907769999932,126.28907769999932,126.28907769999932,126.28907769999932,126.88960409999709,l,1,0.5934102000028361,None,126.88964110001689,126.90580010000849,127.40574310001102,127.38941679999698,None,,,,,test,001,2025-03-26_08h07.29.253,ebbinghaus_illusion,2024.2.4,60.56803121992012,2025-03-26 08h07.39.146910 +1300,
78,8,7,1.0,s,s,1,0.340531199995894,None,None,,,,,7,8,78,0,127.40574310001102,,,,,,,,,127.39019279999775,127.40574310001102,127.40574310001102,127.40574310001102,127.40574310001102,127.40574310001102,127.40574310001102,127.40574310001102,127.40574310001102,127.40574310001102,127.40574310001102,127.40574310001102,127.40574310001102,127.75652600001195,s,1,0.340531199995894,None,127.75656999999774,127.77241390000563,128.27241790000699,128.25604249999742,None,,,,,test,001,2025-03-26_08h07.29.253,ebbinghaus_illusion,2024.2.4,60.56803121992012,2025-03-26 08h07.39.146910 +1300,
79,9,7,1.3,s,s,1,0.7697708000196144,None,None,,,,,7,9,79,3,128.27241790000699,,,,,,,,,128.25681059999624,128.27241790000699,128.27241790000699,128.27241790000699,128.27241790000699,128.27241790000699,128.27241790000699,128.27241790000699,128.27241790000699,128.27241790000699,128.27241790000699,128.27241790000699,128.27241790000699,129.05626820001635,s,1,0.7697708000196144,None,129.05630960001145,129.07233970001107,129.5725298000034,129.55634090001695,None,,,,,test,001,2025-03-26_08h07.29.253,ebbinghaus_illusion,2024.2.4,60.56803121992012,2025-03-26 08h07.39.146910 +1300,
80,0,8,1.1,s,s,1,0.5092995000013616,None,None,,,,,8,0,80,1,129.5725298000034,,,,,,,,,129.55708629998844,129.5725298000034,129.5725298000034,129.5725298000034,129.5725298000034,129.5725298000034,129.5725298000034,129.5725298000034,129.5725298000034,129.5725298000034,129.5725298000034,129.5725298000034,129.5725298000034,130.09011170000304,s,1,0.5092995000013616,None,130.09017820001463,130.10591670000576,130.6057606000104,130.58924989998923,None,,,,,test,001,2025-03-26_08h07.29.253,ebbinghaus_illusion,2024.2.4,60.56803121992012,2025-03-26 08h07.39.146910 +1300,
81,1,8,1.2,s,s,1,0.8207994000113104,None,None,,,,,8,1,81,2,130.6057606000104,,,,,,,,,130.59005369999795,130.6057606000104,130.6057606000104,130.6057606000104,130.6057606000104,130.6057606000104,130.6057606000104,130.6057606000104,130.6057606000104,130.6057606000104,130.6057606000104,130.6057606000104,130.6057606000104,131.43965020001633,s,1,0.8207994000113104,None,131.4396919000137,131.45567520000623,131.9558468000032,131.93934179999633,None,,,,,test,001,2025-03-26_08h07.29.253,ebbinghaus_illusion,2024.2.4,60.56803121992012,2025-03-26 08h07.39.146910 +1300,
82,2,8,1.4,s,s,1,0.6223942999786232,None,None,,,,,8,2,82,4,131.9558468000032,,,,,,,,,131.94008110000868,131.9558468000032,131.9558468000032,131.9558468000032,131.9558468000032,131.9558468000032,131.9558468000032,131.9558468000032,131.9558468000032,131.9558468000032,131.9558468000032,131.9558468000032,131.9558468000032,132.5896192000073,s,1,0.6223942999786232,None,132.58968460001051,132.60570889999508,133.10584150001523,133.0891310000152,None,,,,,test,001,2025-03-26_08h07.29.253,ebbinghaus_illusion,2024.2.4,60.56803121992012,2025-03-26 08h07.39.146910 +1300,
83,3,8,2.0,l,l,1,0.496136400004616,None,None,,,,,8,3,83,9,133.10584150001523,,,,,,,,,133.0898664999986,133.10584150001523,133.10584150001523,133.10584150001523,133.10584150001523,133.10584150001523,133.10584150001523,133.10584150001523,133.10584150001523,133.10584150001523,133.10584150001523,133.10584150001523,133.10584150001523,133.60622600000352,l,1,0.496136400004616,None,133.60626269999193,133.62232230001246,134.12244189999183,134.105939400004,None,,,,,test,001,2025-03-26_08h07.29.253,ebbinghaus_illusion,2024.2.4,60.56803121992012,2025-03-26 08h07.39.146910 +1300,
84,4,8,1.0,s,s,1,0.7123098000010941,None,None,,,,,8,4,84,0,134.12244189999183,,,,,,,,,134.10671590000857,134.12244189999183,134.12244189999183,134.12244189999183,134.12244189999183,134.12244189999183,134.12244189999183,134.12244189999183,134.12244189999183,134.12244189999183,134.12244189999183,134.12244189999183,134.12244189999183,134.83966309999232,s,1,0.7123098000010941,None,134.83970579999732,134.85569389999728,135.35568810001132,135.33919319999404,None,,,,,test,001,2025-03-26_08h07.29.253,ebbinghaus_illusion,2024.2.4,60.56803121992012,2025-03-26 08h07.39.146910 +1300,
85,5,8,1.3,s,s,1,0.534732999978587,None,None,,,,,8,5,85,3,135.35568810001132,,,,,,,,,135.33995960000902,135.35568810001132,135.35568810001132,135.35568810001132,135.35568810001132,135.35568810001132,135.35568810001132,135.35568810001132,135.35568810001132,135.35568810001132,135.35568810001132,135.35568810001132,135.35568810001132,135.9060587999993,s,1,0.534732999978587,None,135.90609579999,135.92230979999295,136.42230350000318,136.40615950000938,None,,,,,test,001,2025-03-26_08h07.29.253,ebbinghaus_illusion,2024.2.4,60.56803121992012,2025-03-26 08h07.39.146910 +1300,
86,6,8,1.8,l,l,1,1.083417299989378,None,None,,,,,8,6,86,7,136.42230350000318,,,,,,,,,136.4069209000154,136.42230350000318,136.42230350000318,136.42230350000318,136.42230350000318,136.42230350000318,136.42230350000318,136.42230350000318,136.42230350000318,136.42230350000318,136.42230350000318,136.42230350000318,136.42230350000318,137.50677440001164,l,1,1.083417299989378,None,137.50681859999895,137.52247299999,138.0223501000146,138.00607070000842,None,,,,,test,001,2025-03-26_08h07.29.253,ebbinghaus_illusion,2024.2.4,60.56803121992012,2025-03-26 08h07.39.146910 +1300,
87,7,8,1.9,l,l,1,0.571442799991928,None,None,,,,,8,7,87,8,138.0223501000146,,,,,,,,,138.00684010001714,138.0223501000146,138.0223501000146,138.0223501000146,138.0223501000146,138.0223501000146,138.0223501000146,138.0223501000146,138.0223501000146,138.0223501000146,138.0223501000146,138.0223501000146,138.0223501000146,138.60620109998854,l,1,0.571442799991928,None,138.6062385000114,138.62229920001118,139.12228539999342,139.10603980001179,None,,,,,test,001,2025-03-26_08h07.29.253,ebbinghaus_illusion,2024.2.4,60.56803121992012,2025-03-26 08h07.39.146910 +1300,
88,8,8,1.7,l,s,0,4.016217199998209,None,None,,,,,8,8,88,6,139.12228539999342,,,,,,,,,139.10677650000434,139.12228539999342,139.12228539999342,139.12228539999342,139.12228539999342,139.12228539999342,139.12228539999342,139.12228539999342,139.12228539999342,139.12228539999342,139.12228539999342,139.12228539999342,139.12228539999342,143.1396372000163,s,0,4.016217199998209,None,143.13967900001444,143.15562790000695,143.65563560000737,143.63922370001092,None,,,,,test,001,2025-03-26_08h07.29.253,ebbinghaus_illusion,2024.2.4,60.56803121992012,2025-03-26 08h07.39.146910 +1300,
89,9,8,1.6,l,s,0,1.2262946999981068,None,None,,,,,8,9,89,5,143.65563560000737,,,,,,,,,143.63997600000584,143.65563560000737,143.65563560000737,143.65563560000737,143.65563560000737,143.65563560000737,143.65563560000737,143.65563560000737,143.65563560000737,143.65563560000737,143.65563560000737,143.65563560000737,143.65563560000737,144.8893883000128,s,0,1.2262946999981068,None,144.88942880000104,144.90563130000373,145.4055737000017,145.38912020000862,None,,,,,test,001,2025-03-26_08h07.29.253,ebbinghaus_illusion,2024.2.4,60.56803121992012,2025-03-26 08h07.39.146910 +1300,
90,0,9,2.0,l,l,1,0.6606594999902882,None,None,,,,,9,0,90,9,145.4055737000017,,,,,,,,,145.38986860000296,145.4055737000017,145.4055737000017,145.4055737000017,145.4055737000017,145.4055737000017,145.4055737000017,145.4055737000017,145.4055737000017,145.4055737000017,145.4055737000017,145.4055737000017,145.4055737000017,146.07280100000207,l,1,0.6606594999902882,None,146.0728425999987,146.08891109999968,146.58901590001187,146.57249349998892,None,,,,,test,001,2025-03-26_08h07.29.253,ebbinghaus_illusion,2024.2.4,60.56803121992012,2025-03-26 08h07.39.146910 +1300,
91,1,9,1.0,s,s,1,0.42184830000041984,None,None,,,,,9,1,91,0,146.58901590001187,,,,,,,,,146.57323370000813,146.58901590001187,146.58901590001187,146.58901590001187,146.58901590001187,146.58901590001187,146.58901590001187,146.58901590001187,146.58901590001187,146.58901590001187,146.58901590001187,146.58901590001187,146.58901590001187,147.02265480000642,s,1,0.42184830000041984,None,147.02269449998857,147.03889860000345,147.5389039000147,147.52251780001097,None,,,,,test,001,2025-03-26_08h07.29.253,ebbinghaus_illusion,2024.2.4,60.56803121992012,2025-03-26 08h07.39.146910 +1300,
92,2,9,1.9,l,l,1,0.4952305000042543,None,None,,,,,9,2,92,8,147.5389039000147,,,,,,,,,147.5232793999894,147.5389039000147,147.5389039000147,147.5389039000147,147.5389039000147,147.5389039000147,147.5389039000147,147.5389039000147,147.5389039000147,147.5389039000147,147.5389039000147,147.5389039000147,147.5389039000147,148.03933980001602,l,1,0.4952305000042543,None,148.03937939999742,148.0556950000173,148.55563640000764,148.53916270000627,None,,,,,test,001,2025-03-26_08h07.29.253,ebbinghaus_illusion,2024.2.4,60.56803121992012,2025-03-26 08h07.39.146910 +1300,
93,3,9,1.6,l,l,1,2.038257700012764,None,None,,,,,9,3,93,5,148.55563640000764,,,,,,,,,148.5399000000034,148.55563640000764,148.55563640000764,148.55563640000764,148.55563640000764,148.55563640000764,148.55563640000764,148.55563640000764,148.55563640000764,148.55563640000764,148.55563640000764,148.55563640000764,148.55563640000764,150.6062985000026,l,1,2.038257700012764,None,150.60634759999812,150.62223400000948,151.12228060001507,151.10590880000382,None,,,,,test,001,2025-03-26_08h07.29.253,ebbinghaus_illusion,2024.2.4,60.56803121992012,2025-03-26 08h07.39.146910 +1300,
94,4,9,1.7,l,l,1,0.8964466000034008,None,None,,,,,9,4,94,6,151.12228060001507,,,,,,,,,151.10669350001263,151.12228060001507,151.12228060001507,151.12228060001507,151.12228060001507,151.12228060001507,151.12228060001507,151.12228060001507,151.12228060001507,151.12228060001507,151.12228060001507,151.12228060001507,151.12228060001507,152.02275040000677,l,1,0.8964466000034008,None,152.02279099999578,152.03886760000023,152.5389577000169,152.52252870000666,None,,,,,test,001,2025-03-26_08h07.29.253,ebbinghaus_illusion,2024.2.4,60.56803121992012,2025-03-26 08h07.39.146910 +1300,
95,5,9,1.2,s,s,1,0.4557168999745045,None,None,,,,,9,5,95,2,152.5389577000169,,,,,,,,,152.52329989999998,152.5389577000169,152.5389577000169,152.5389577000169,152.5389577000169,152.5389577000169,152.5389577000169,152.5389577000169,152.5389577000169,152.5389577000169,152.5389577000169,152.5389577000169,152.5389577000169,153.0059763000172,s,1,0.4557168999745045,None,153.0060162000009,153.02225139999064,153.5222628999909,153.50576629998977,None,,,,,test,001,2025-03-26_08h07.29.253,ebbinghaus_illusion,2024.2.4,60.56803121992012,2025-03-26 08h07.39.146910 +1300,
96,6,9,1.1,s,s,1,0.479725299985148,None,None,,,,,9,6,96,1,153.5222628999909,,,,,,,,,153.5065072000143,153.5222628999909,153.5222628999909,153.5222628999909,153.5222628999909,153.5222628999909,153.5222628999909,153.5222628999909,153.5222628999909,153.5222628999909,153.5222628999909,153.5222628999909,153.5222628999909,154.0061693000025,s,1,0.479725299985148,None,154.00621079999837,154.0222286999924,154.52235459999065,154.50595990000875,None,,,,,test,001,2025-03-26_08h07.29.253,ebbinghaus_illusion,2024.2.4,60.56803121992012,2025-03-26 08h07.39.146910 +1300,
97,7,9,1.8,l,l,1,0.6633236999914516,None,None,,,,,9,7,97,7,154.52235459999065,,,,,,,,,154.50672140001552,154.52235459999065,154.52235459999065,154.52235459999065,154.52235459999065,154.52235459999065,154.52235459999065,154.52235459999065,154.52235459999065,154.52235459999065,154.52235459999065,154.52235459999065,154.52235459999065,155.18940900001326,l,1,0.6633236999914516,None,155.18944889999693,155.20550820001517,155.70560660000774,155.6890878000122,None,,,,,test,001,2025-03-26_08h07.29.253,ebbinghaus_illusion,2024.2.4,60.56803121992012,2025-03-26 08h07.39.146910 +1300,
98,8,9,1.3,s,s,1,0.8401895000133663,None,None,,,,,9,8,98,3,155.70560660000774,,,,,,,,,155.68984979999368,155.70560660000774,155.70560660000774,155.70560660000774,155.70560660000774,155.70560660000774,155.70560660000774,155.70560660000774,155.70560660000774,155.70560660000774,155.70560660000774,155.70560660000774,155.70560660000774,156.55611599999247,s,1,0.8401895000133663,None,156.55615829999442,156.57217600001604,157.07226049999008,157.0557216000161,None,,,,,test,001,2025-03-26_08h07.29.253,ebbinghaus_illusion,2024.2.4,60.56803121992012,2025-03-26 08h07.39.146910 +1300,
99,9,9,1.4,s,s,1,0.5142333999974653,None,None,,,,,9,9,99,4,157.07226049999008,,,,,,,,,157.05646369999158,157.07226049999008,157.07226049999008,157.07226049999008,157.07226049999008,157.07226049999008,157.07226049999008,157.07226049999008,157.07226049999008,157.07226049999008,157.07226049999008,157.07226049999008,157.07226049999008,157.58944070001598,s,1,0.5142333999974653,None,157.58948339999188,157.60565780001343,158.10555189999286,158.08905199999572,None,,,,,test,001,2025-03-26_08h07.29.253,ebbinghaus_illusion,2024.2.4,60.56803121992012,2025-03-26 08h07.39.146910 +1300,
,,,,,,,,,,,,,,,,,,,,,,,,,,,,,,,,,,,,,,,,,,,,,,,,,,158.08912019999116,158.10555189999286,163.10546580000664,163.089192000014,test,001,2025-03-26_08h07.29.253,ebbinghaus_illusion,2024.2.4,60.56803121992012,2025-03-26 08h07.39.146910 +1300,
